Title=75 nM SST dsDNA Cy5 - 150 mM NaCl - 20deg - anisotropy
Comment=1,1,1,1
Signature=ISS_Experiment_Ver_1_0
Timestamp=Fri Nov 30 14:58:22 2018

AcquisitionType=Photon Counting
AcquisitionFormat=L
AcquisitionSide=Right

Measurable=Polarization

RightEmissionWavelengthBandwidth=8
ExcitationWavelengthBandwidth=8
Visualization=PlotType:2D,X:Iteration,Y:Polarization


Iteration=type:index,unit:none,count:20
ExcitationWavelength=type:numeric,unit:nm,fixed:649.0
EmissionWavelength=type:numeric,unit:nm,fixed:660.0

Space=Iteration
Columns=Iteration,Polarization,Anisotropy,TotalIntensity,I_VV,I_VH,I_HV,I_HH,PolarizationStdError,AnisotropyStdError,TotalIntensityStdError,I_VVStdError,I_VHStdError,I_HVStdError,I_HHStdError,Temperature
[Data]
1  	     0.349488478      0.263713985       12869.0847           6552.2           7217.2             9425          21536.6     0.012913    0.0098479       171.69       94.108       123.51       120.13       168.83            19.99
2  	     0.372435999      0.283483865       12937.4075           6757.5           7060.7             9425          21536.6     0.011259    0.0086152       142.36       87.391       72.958       120.13       168.83               20
3  	     0.363324492      0.275592875       12812.9723           6625.1           7069.8             9425          21536.6     0.013819     0.010518       171.28       107.09       110.15       120.13       168.83               20
4  	     0.364952013      0.276998381       12556.7829           6504.4             6915             9425          21536.6     0.016849     0.012681       184.02       138.03       92.884       120.13       168.83               20
5  	     0.368574233      0.280132723       12819.5494           6667.3           7029.1             9425          21536.6     0.012473    0.0094653       148.08       100.14       66.858       120.13       168.83               20
6  	     0.360144571      0.272851738        12826.781           6608.8           7104.2             9425          21536.6    0.0085566    0.0066578        125.5       53.945         73.9       120.13       168.83               20
7  	     0.369242955      0.280712319       12736.0614           6628.8           6977.7             9425          21536.6      0.01254    0.0095943        157.6       94.969       98.731       120.13       168.83            19.99
8  	     0.374642412      0.285402959       12867.9805           6737.7             7004             9425          21536.6     0.014296      0.01089       172.13        114.4          103       120.13       168.83            19.99
9  	     0.352775452      0.266524766       12608.2032             6443           7043.9             9425          21536.6    0.0096098    0.0073362       124.64       68.974       54.406       120.13       168.83            19.99
10 	     0.355017816      0.268446281       12750.7937           6532.2           7104.9             9425          21536.6     0.011732     0.008938       150.24       87.323       90.592       120.13       168.83          19.9966
11 	     0.372642302      0.283663167       12717.9641           6644.4           6939.2             9425          21536.6     0.013566     0.010326       161.62       107.17       91.221       120.13       168.83          19.9966
12 	     0.367206294      0.278948019       12950.1581             6725           7112.4             9425          21536.6     0.012474    0.0095357       159.48       95.995       99.231       120.13       168.83          19.9966
13 	     0.360621294      0.273262259       12927.2441           6664.1           7155.8             9425          21536.6     0.010583    0.0081423       144.98       75.318       92.563       120.13       168.83            19.99
14 	     0.369525931      0.280957669       12694.0299             6609           6952.3             9425          21536.6     0.010899    0.0083736        140.7       79.892        81.77       120.13       168.83            19.99
15 	     0.363636825      0.275862467       12808.1334           6624.9           7064.5             9425          21536.6      0.01221    0.0093174       154.26       92.962       92.782       120.13       168.83               20
16 	     0.363471128      0.275719437       12578.8391           6505.1           6939.4             9425          21536.6     0.010867    0.0082763        132.8       82.365       58.178       120.13       168.83               20
17 	     0.355732292      0.269059211       12977.0242           6653.4           7224.9             9425          21536.6      0.01096    0.0083148       137.57       85.958       58.054       120.13       168.83          20.0033
18 	     0.370303775      0.281632358        12641.621           6587.4           6917.1             9425          21536.6     0.010111    0.0078061       134.14       71.295        78.36       120.13       168.83          20.0033
19 	     0.380776557      0.290755306       12567.2884           6625.1           6789.1             9425          21536.6     0.011338    0.0087515       144.16       82.815       88.631       120.13       168.83          20.0033
20 	     0.362033449      0.274479181       12992.5378           6708.3           7179.9             9425          21536.6     0.013596     0.010349       171.73       106.36       110.38       120.13       168.83          20.0033
