Title=75 nM SST dsDNA Cy5 - 150 mM NaCl - 70deg - anisotropy 3
Comment=2,2,1,1
Signature=ISS_Experiment_Ver_1_0
Timestamp=Fri Nov 30 15:07:03 2018

AcquisitionType=Photon Counting
AcquisitionFormat=L
AcquisitionSide=Right

Measurable=Polarization

RightEmissionWavelengthBandwidth=8
ExcitationWavelengthBandwidth=8
Visualization=PlotType:2D,X:Iteration,Y:Polarization


Iteration=type:index,unit:none,count:20
ExcitationWavelength=type:numeric,unit:nm,fixed:649.0
EmissionWavelength=type:numeric,unit:nm,fixed:660.0

Space=Iteration
Columns=Iteration,Polarization,Anisotropy,TotalIntensity,I_VV,I_VH,I_HV,I_HH,PolarizationStdError,AnisotropyStdError,TotalIntensityStdError,I_VVStdError,I_VHStdError,I_HVStdError,I_HHStdError,Temperature
[Data]
1  	     0.249357572      0.181308606       11266.7005           5117.4           7105.1           9469.4          21882.5     0.013055    0.0095278       151.53       81.878       108.49       101.94       196.83            70.01
2  	     0.253037916      0.184231095       11263.2999           5137.8           7077.6           9469.4          21882.5     0.011544    0.0084364       133.61       72.668       83.213       101.94       196.83          70.0066
3  	     0.254975024      0.185772462       11176.5205           5109.7           7009.8           9469.4          21882.5     0.013527    0.0098311       140.33       92.883       71.423       101.94       196.83          70.0033
4  	     0.243852344      0.176951582       11290.0246           5095.2           7157.7           9469.4          21882.5     0.010796     0.007909       137.19       59.764       101.37       101.94       196.83          70.0033
5  	      0.25268919      0.183953842       11328.8347           5165.6           7121.2           9469.4          21882.5     0.014968     0.010888       162.21       101.63       106.57       101.94       196.83          70.0033
6  	     0.242303212      0.175728683       11468.7303           5166.5           7281.8           9469.4          21882.5      0.01096    0.0080893       156.62       47.846       138.77       101.94       196.83          70.0033
7  	     0.256772789      0.187204901       11414.7178           5229.5           7146.6           9469.4          21882.5     0.014368      0.01051       167.25       92.518       125.96       101.94       196.83          70.0033
8  	     0.269572576      0.197458151       11309.4958           5258.6           6991.4           9469.4          21882.5     0.013489    0.0098732       145.64       91.927       86.131       101.94       196.83          70.0033
9  	     0.254608935      0.185480996       11410.1631           5214.3           7158.9           9469.4          21882.5      0.01392     0.010201       168.31       85.566       134.01       101.94       196.83          70.0033
10 	     0.251908892      0.183333726       11417.0422           5201.1           7182.1           9469.4          21882.5     0.013866     0.010068       147.59       96.854       80.051       101.94       196.83          70.0033
11 	     0.238211917      0.172505572       11192.0262           5017.8           7133.9           9469.4          21882.5     0.011634    0.0084783       140.81       67.896       101.49       101.94       196.83          70.0033
12 	     0.260066023      0.189833788       11309.4634           5201.1           7057.8           9469.4          21882.5     0.014258     0.010401       154.52       96.653       97.996       101.94       196.83          70.0033
13 	     0.240952625      0.174663637       11209.8082           5041.9           7126.6           9469.4          21882.5     0.013408     0.009809       168.96        73.78        144.4       101.94       196.83          70.0033
14 	     0.247798826      0.180073193       11137.6247           5049.6           7034.3           9469.4          21882.5     0.014617     0.010617       156.78       96.889        102.7       101.94       196.83          70.0033
15 	     0.251809771      0.183254979       11357.7658           5173.5           7145.5           9469.4          21882.5     0.010364    0.0076393       136.69       54.522       104.54       101.94       196.83          70.0066
16 	     0.262850622      0.192061584       11342.4154           5233.1           7058.9           9469.4          21882.5     0.010694    0.0079127       138.44        58.38       105.98       101.94       196.83          70.0066
17 	     0.260409212      0.190108109       11422.7755           5255.3           7126.1           9469.4          21882.5     0.010753     0.007945       139.77       59.397       106.67       101.94       196.83          70.0033
18 	     0.237607208      0.172029994        11267.131           5047.9           7185.9           9469.4          21882.5      0.01095    0.0079561        127.7       68.081       73.633       101.94       196.83          70.0033
19 	     0.258638118       0.18869316       11468.4601           5265.5           7167.1           9469.4          21882.5     0.012568    0.0091951       145.71       82.111       96.098       101.94       196.83          70.0033
20 	     0.265940201      0.194538687       11478.1943           5314.7           7121.5           9469.4          21882.5     0.013489     0.009868       149.82       92.146       93.009       101.94       196.83          70.0033
