Title=75 nM SST dsDNA Cy5 - 150 mM NaCl - 20deg return - anisotropy
Comment=2,2,1,1
Signature=ISS_Experiment_Ver_1_0
Timestamp=Fri Nov 30 15:12:01 2018

AcquisitionType=Photon Counting
AcquisitionFormat=L
AcquisitionSide=Right

Measurable=Polarization

RightEmissionWavelengthBandwidth=8
ExcitationWavelengthBandwidth=8
Visualization=PlotType:2D,X:Iteration,Y:Polarization


Iteration=type:index,unit:none,count:20
ExcitationWavelength=type:numeric,unit:nm,fixed:649.0
EmissionWavelength=type:numeric,unit:nm,fixed:660.0

Space=Iteration
Columns=Iteration,Polarization,Anisotropy,TotalIntensity,I_VV,I_VH,I_HV,I_HH,PolarizationStdError,AnisotropyStdError,TotalIntensityStdError,I_VVStdError,I_VHStdError,I_HVStdError,I_HHStdError,Temperature
[Data]
1  	      0.35534222      0.268724538       25124.3443          12875.8          14107.6          18560.7          42755.6    0.0071533    0.0054549       181.59       104.29       118.98       123.86       240.49          20.3866
2  	     0.362365739      0.274765721       25454.6626          13147.6            14175          18560.7          42755.6     0.008618    0.0064773        190.1        143.4       73.207       123.86       240.49          20.5066
3  	     0.341433103      0.256855002        26223.517          13231.6          14963.8          18560.7          42755.6    0.0097518     0.007308       232.98       161.56       142.58       123.86       240.49          20.5566
4  	     0.370467349       0.28177429         26705.79          13918.6            14728          18560.7          42755.6    0.0089995    0.0068743       233.25       145.06       166.54       123.86       240.49            20.55
5  	     0.359284324      0.272111327       27066.0451            13932          15127.5          18560.7          42755.6    0.0088637    0.0067167       226.82       147.77       147.82       123.86       240.49            20.52
6  	     0.359526951      0.272320107       27259.9403          14035.6          15231.5          18560.7          42755.6     0.010055    0.0075881        249.5       173.63       157.85       123.86       240.49          20.4733
7  	     0.354616918      0.268102507        27565.852          14115.6          15491.7          18560.7          42755.6    0.0067907    0.0052574        211.4       93.941       171.17       123.86       240.49          20.3933
8  	     0.363182046      0.275469943       27665.8692          14302.7          15391.4          18560.7          42755.6    0.0067553    0.0051417       180.86       112.99       91.718       123.86       240.49            20.33
9  	     0.349230726      0.263493869       27464.2677          13979.2          15531.8          18560.7          42755.6    0.0076506    0.0057949       205.38       125.73        128.9       123.86       240.49            20.25
10 	     0.358797699      0.271692706       27895.7542          14351.3          15600.2          18560.7          42755.6     0.006995    0.0053108       187.85       118.44       98.322       123.86       240.49          20.2066
11 	     0.354359936      0.267882197       28075.2049          14372.3          15782.7          18560.7          42755.6    0.0072559     0.005506       198.46       122.32       115.88       123.86       240.49          20.1566
12 	     0.368184851      0.279795373       27990.6123          14551.3          15479.1          18560.7          42755.6    0.0063876    0.0049059       182.22       102.99       108.29       123.86       240.49          20.1166
13 	     0.354085382      0.267646869       28105.3058          14383.3          15804.7          18560.7          42755.6    0.0064657    0.0049763       197.52       96.692       142.58       123.86       240.49          20.0866
14 	     0.356258694      0.269511009       28325.7156          14531.3          15888.1          18560.7          42755.6     0.007846    0.0059607       217.12       133.16       140.68       123.86       240.49            20.06
15 	     0.356885471      0.270049191        28288.972          14522.6          15855.8          18560.7          42755.6    0.0066541    0.0050841       192.03       108.18       119.35       123.86       240.49            20.05
16 	     0.367866491      0.279519629       28602.6152          14864.2          15823.6          18560.7          42755.6    0.0062268    0.0047919       184.33        100.9       111.79       123.86       240.49            20.03
17 	      0.36051783      0.273173151       28804.2206          14847.1          16075.5          18560.7          42755.6    0.0076886     0.005834       210.86       135.67       121.98       123.86       240.49            20.02
18 	     0.357785115      0.270822118       29109.6344          14958.9          16298.5          18560.7          42755.6    0.0070144    0.0053188       195.23       124.63       98.604       123.86       240.49          20.0266
19 	     0.364249318       0.27639133       29455.6999          15246.1          16366.3          18560.7          42755.6    0.0076293    0.0058354       225.16       131.64       154.47       123.86       240.49            20.01
20 	     0.361231693       0.27378811       29891.5164          15419.8          16668.2          18560.7          42755.6    0.0080015    0.0061118       239.69       140.03       170.42       123.86       240.49            20.01
