Title=75 nM SST ssDNA Cy5 - 150 mM NaCl - 70deg - anisotropy
Comment=2,2,1,1
Signature=ISS_Experiment_Ver_1_0
Timestamp=Fri Nov 30 15:21:39 2018

AcquisitionType=Photon Counting
AcquisitionFormat=L
AcquisitionSide=Right

Measurable=Polarization

RightEmissionWavelengthBandwidth=8
ExcitationWavelengthBandwidth=8
Visualization=PlotType:2D,X:Iteration,Y:Polarization


Iteration=type:index,unit:none,count:20
ExcitationWavelength=type:numeric,unit:nm,fixed:649.0
EmissionWavelength=type:numeric,unit:nm,fixed:660.0

Space=Iteration
Columns=Iteration,Polarization,Anisotropy,TotalIntensity,I_VV,I_VH,I_HV,I_HH,PolarizationStdError,AnisotropyStdError,TotalIntensityStdError,I_VVStdError,I_VHStdError,I_HVStdError,I_HHStdError,Temperature
[Data]
1  	     0.265641001      0.194298555       8606.60008           3983.7           5413.1           7319.3          17140.8     0.016855      0.01231       137.06       88.087       73.402       107.63       184.49            69.99
2  	     0.232357766      0.167910261        8372.6068           3728.1           5438.4           7319.3          17140.8      0.01358    0.0098981       128.11       55.407       92.035       107.63       184.49               70
3  	      0.28258193      0.207978252       8281.18658           3908.6             5120           7319.3          17140.8     0.012728    0.0094602       114.19       55.539       70.321       107.63       184.49          70.0033
4  	     0.266503033      0.194990546       8529.18077           3951.8           5359.8           7319.3          17140.8     0.011718    0.0086614        110.5       50.866       60.459       107.63       184.49          70.0066
5  	     0.275798929      0.202480596       8499.73655           3980.6           5291.6           7319.3          17140.8     0.013133    0.0097121       118.28       60.485       69.756       107.63       184.49          70.0066
6  	     0.262624212      0.191880277       8496.19537           3918.9           5359.7           7319.3          17140.8     0.018181      0.01327       146.98       93.202       90.396       107.63       184.49            70.01
7  	     0.263263608      0.192392376       8300.13472           3831.3           5232.7           7319.3          17140.8     0.018082     0.013192       141.31       91.351       82.721       107.63       184.49            70.01
8  	      0.27688081      0.203355631       8324.30956           3903.3           5176.7           7319.3          17140.8     0.013521     0.010046       124.94       57.095       89.628       107.63       184.49            70.01
9  	     0.267885357       0.19610111       8204.41157           3807.4           5148.6           7319.3          17140.8     0.012965    0.0095977       118.85       53.238       81.731       107.63       184.49            70.01
10 	       0.2519428      0.183360667       8128.65047           3703.2           5181.9           7319.3          17140.8     0.015143     0.011038       122.37       71.209       68.282       107.63       184.49            70.01
11 	     0.275523854      0.202258224       8202.53833           3840.2             5108           7319.3          17140.8     0.013348    0.0098542       113.73       60.781       63.279       107.63       184.49            70.01
12 	     0.269094393      0.197073376       8048.57881           3740.3           5044.7           7319.3          17140.8     0.019406     0.014189       147.14       95.133       93.943       107.63       184.49            70.01
13 	     0.242056463      0.175534024        8143.7793           3667.6           5241.3           7319.3          17140.8     0.015673     0.011366       124.12       75.205       65.166       107.63       184.49            70.01
14 	     0.231823726      0.167492026       8019.87109           3568.8           5211.9           7319.3          17140.8     0.016563     0.011969       129.85       77.679        76.32       107.63       184.49            70.01
15 	     0.241085339      0.174768246       7854.47452           3533.3           5059.8           7319.3          17140.8     0.015071     0.011018       131.74       59.111       102.49       107.63       184.49            70.01
16 	       0.2740285      0.201050158       8055.12977           3764.7           5023.8           7319.3          17140.8     0.012918    0.0095903       116.29       52.159       80.185       107.63       184.49            70.01
17 	     0.286082558      0.210826279       7924.08801           3755.1           4881.6           7319.3          17140.8     0.015411     0.011377       120.12       71.917       69.126       107.63       184.49            70.01
18 	     0.293534023      0.216913144       7961.63391           3805.2           4866.9           7319.3          17140.8     0.014408      0.01084       132.97       54.102        111.2       107.63       184.49          70.0133
19 	     0.254546138      0.185431008       7956.81832           3635.9           5059.5           7319.3          17140.8     0.015038     0.010988       121.59       67.724       74.028       107.63       184.49          70.0133
20 	     0.278738243       0.20485956       7850.28723           3688.9           4872.7           7319.3          17140.8     0.020117     0.014792       153.09       94.104       110.04       107.63       184.49          70.0133
