Title=75 nM NS ssDNA Cy5 - 150 mM NaCl - 20deg return - anisotropy
Comment=2,2,1,1
Signature=ISS_Experiment_Ver_1_0
Timestamp=Mon Dec 03 11:09:03 2018

AcquisitionType=Photon Counting
AcquisitionFormat=L
AcquisitionSide=Right

Measurable=Polarization

RightEmissionWavelengthBandwidth=8
ExcitationWavelengthBandwidth=8
Visualization=PlotType:2D,X:Iteration,Y:Polarization


Iteration=type:index,unit:none,count:20
ExcitationWavelength=type:numeric,unit:nm,fixed:649.0
EmissionWavelength=type:numeric,unit:nm,fixed:665.0

Space=Iteration
Columns=Iteration,Polarization,Anisotropy,TotalIntensity,I_VV,I_VH,I_HV,I_HH,PolarizationStdError,AnisotropyStdError,TotalIntensityStdError,I_VVStdError,I_VHStdError,I_HVStdError,I_HHStdError,Temperature
[Data]
1  	     0.320747355      0.239430467       25130.7605          12388.3          14947.9          19839.9          46547.5    0.0079744    0.0059923       204.02        114.8       145.98       148.45       227.19          20.3266
2  	     0.321846827      0.240349828       25303.5785            12489          15032.5          19839.9          46547.5    0.0064214     0.004852       173.14       88.293       111.76       148.45       227.19          20.4266
3  	     0.320432525      0.239167349       25756.0078            12692          15325.1          19839.9          46547.5    0.0079737    0.0059865        207.6       118.51       145.73       148.45       227.19          20.5166
4  	     0.330230106      0.247384695       25561.3342          12736.1            15045          19839.9          46547.5    0.0091783    0.0068465       212.95       148.39       118.49       148.45       227.19            20.54
5  	     0.336082886       0.25232233       25593.1523          12836.2          14964.9          19839.9          46547.5    0.0070273    0.0053202        184.1       102.69       119.39       148.45       227.19          20.5333
6  	      0.32153106      0.240085711       25549.5407          12605.9          15183.9          19839.9          46547.5    0.0082758    0.0062008       208.56       124.99       141.28       148.45       227.19          20.4933
7  	     0.315007284      0.234642933       25662.0586          12568.3            15360          19839.9          46547.5    0.0067855    0.0050981       181.35        97.18        115.9       148.45       227.19          20.4333
8  	     0.324827224      0.242845791       25668.8538            12712          15199.4          19839.9          46547.5     0.006833    0.0051718       187.36        95.06       132.04       148.45       227.19            20.35
9  	     0.332188112      0.249034134       25787.4096          12877.1          15144.8          19839.9          46547.5    0.0066286     0.005008       174.51       97.814       102.16       148.45       227.19            20.29
10 	     0.333581385      0.250209313       25840.7883            12924          15152.4          19839.9          46547.5    0.0087366    0.0065659       218.32       136.07        147.6       148.45       227.19          20.2333
11 	     0.335124297      0.251512141       25935.3095          12993.8          15181.4          19839.9          46547.5     0.008921    0.0067115       224.61       139.02       156.32       148.45       227.19            20.18
12 	     0.333186963      0.249876507       26013.0833          13004.4          15260.2          19839.9          46547.5    0.0081763    0.0061969       222.28       118.59       173.36       148.45       227.19            20.14
13 	     0.330555338      0.247658505       26011.0062          12964.9          15304.1          19839.9          46547.5     0.007224    0.0054274       183.38       112.31       101.12       148.45       227.19          20.1133
14 	     0.322908274       0.24123811        26000.552          12848.4          15428.5          19839.9          46547.5    0.0065293    0.0049134       173.58       96.846       97.755       148.45       227.19            20.08
15 	     0.334624047      0.251089567       26226.2996          13132.2          15360.4          19839.9          46547.5    0.0075121    0.0057081       209.13       107.83       159.23       148.45       227.19            20.06
16 	     0.328852075      0.246225282       26157.6503            13013          15419.7          19839.9          46547.5    0.0076536    0.0057767       205.33       113.94       145.53       148.45       227.19          20.0466
17 	     0.324885046       0.24289427       26394.8731          13072.4          15628.3          19839.9          46547.5    0.0070877    0.0053002       178.34       113.98       79.997       148.45       227.19            20.03
18 	     0.327997203      0.245506631       26126.1258          12984.8          15415.8          19839.9          46547.5    0.0090096    0.0067385       221.88       144.77       141.21       148.45       227.19            20.02
19 	     0.332277375      0.249109388       26417.1699          13192.9          15513.1          19839.9          46547.5    0.0077884    0.0058718          206        120.1       139.07       148.45       227.19          20.0266
20 	     0.329855285       0.24706922       26089.1488          12993.6          15362.1          19839.9          46547.5    0.0087144    0.0065066       208.81       142.61       114.81       148.45       227.19          20.0133
