Title=75 nM NS dsDNA Cy5 - 150 mM NaCl - 20deg return - anisotropy
Comment=2,2,1,1
Signature=ISS_Experiment_Ver_1_0
Timestamp=Mon Dec 03 10:52:41 2018

AcquisitionType=Photon Counting
AcquisitionFormat=L
AcquisitionSide=Right

Measurable=Polarization

RightEmissionWavelengthBandwidth=8
ExcitationWavelengthBandwidth=8
Visualization=PlotType:2D,X:Iteration,Y:Polarization


Iteration=type:index,unit:none,count:20
ExcitationWavelength=type:numeric,unit:nm,fixed:649.0
EmissionWavelength=type:numeric,unit:nm,fixed:665.0

Space=Iteration
Columns=Iteration,Polarization,Anisotropy,TotalIntensity,I_VV,I_VH,I_HV,I_HH,PolarizationStdError,AnisotropyStdError,TotalIntensityStdError,I_VVStdError,I_VHStdError,I_HVStdError,I_HHStdError,Temperature
[Data]
1  	     0.340628462       0.25617215       23368.4882          11780.4          13608.4            17869          41968.7    0.0093381    0.0070586       216.49       128.66       157.95       143.01       218.03          20.5066
2  	     0.345000943      0.259887809       23562.9521          11936.8          13653.1            17869          41968.7    0.0073042     0.005569       180.41       95.803       123.53       143.01       218.03          20.5266
3  	     0.348936853      0.263242958       23657.0804          12037.4          13645.5            17869          41968.7    0.0069572    0.0052954       167.71       94.602       97.453       143.01       218.03            20.51
4  	     0.351457163      0.265396623       23809.0285          12148.9            13693            17869          41968.7    0.0085714    0.0064628       189.89       127.13       101.83       143.01       218.03            20.48
5  	     0.352124421      0.265967498       23860.6077          12184.3            13712            17869          41968.7     0.010176    0.0077118       235.82       146.16       173.52       143.01       218.03            20.41
6  	     0.350200135      0.264321951       23842.3088          12148.8          13732.2            17869          41968.7    0.0096508    0.0074386       256.24       118.05       232.72       143.01       218.03          20.3566
7  	     0.343165706      0.258326766       23942.1854            12104          13902.1            17869          41968.7    0.0076022    0.0058394       203.04       93.013       165.31       143.01       218.03            20.28
8  	     0.347968035       0.26241617       23981.5874          12189.3          13848.2            17869          41968.7    0.0090067    0.0067539       193.07       138.31       86.984       143.01       218.03          20.2333
9  	     0.334225605      0.250753106       24081.0193          12052.6          14125.5            17869          41968.7     0.010189    0.0076257       227.02       153.17       143.36       143.01       218.03            20.17
10 	      0.34913935      0.263415846       24161.0128          12296.6          13932.9            17869          41968.7     0.008625    0.0065097        197.4       128.02       116.05       143.01       218.03            20.13
11 	     0.339087922      0.254865935       24124.2837          12140.4          14073.2            17869          41968.7    0.0067819    0.0051251       162.92       96.104       76.392       143.01       218.03             20.1
12 	     0.348813563      0.263137709       24075.2747          12248.5          13888.7            17869          41968.7    0.0098523    0.0073771       208.09       153.71       97.842       143.01       218.03            20.07
13 	       0.3409001      0.256402627       23930.9058          12067.6          13931.6            17869          41968.7    0.0099253    0.0074335       215.48       150.48       123.03       143.01       218.03          20.0533
14 	     0.351381223      0.265331671       24314.9483            12406          13985.2            17869          41968.7    0.0093987    0.0071052       217.85       139.72       143.95       143.01       218.03          20.0433
15 	     0.354388853      0.267906985       24098.8171          12337.1          13812.3            17869          41968.7    0.0078511    0.0060334       203.27       102.27       158.71       143.01       218.03          20.0366
16 	     0.353379992      0.267042485        24140.449          12344.5          13852.5            17869          41968.7     0.008471    0.0064253       199.19        122.8       128.27       143.01       218.03            20.02
17 	     0.349576659        0.2637893        24431.607          12440.4          14081.8            17869          41968.7    0.0046795    0.0036679       141.75       46.313       81.854       143.01       218.03          20.0266
18 	     0.353486661      0.267133859       24324.8943          12440.3          13956.6            17869          41968.7    0.0094366    0.0071205       213.45        143.1       129.83       143.01       218.03            20.01
19 	     0.349089476      0.263373262       24493.0638          12464.9          14125.2            17869          41968.7     0.006234    0.0047843        165.6       81.429       102.53       143.01       218.03          20.0066
20 	      0.34446578      0.259432379       24313.2246          12309.5          14096.5            17869          41968.7     0.006533    0.0049695       163.79       90.082       87.838       143.01       218.03          20.0033
