Title=75 nM NS ssDNA Cy5 - 150 mM NaCl - 70deg - anisotropy
Comment=2,2,1,1
Signature=ISS_Experiment_Ver_1_0
Timestamp=Mon Dec 03 11:04:18 2018

AcquisitionType=Photon Counting
AcquisitionFormat=L
AcquisitionSide=Right

Measurable=Polarization

RightEmissionWavelengthBandwidth=8
ExcitationWavelengthBandwidth=8
Visualization=PlotType:2D,X:Iteration,Y:Polarization


Iteration=type:index,unit:none,count:20
ExcitationWavelength=type:numeric,unit:nm,fixed:649.0
EmissionWavelength=type:numeric,unit:nm,fixed:665.0

Space=Iteration
Columns=Iteration,Polarization,Anisotropy,TotalIntensity,I_VV,I_VH,I_HV,I_HH,PolarizationStdError,AnisotropyStdError,TotalIntensityStdError,I_VVStdError,I_VHStdError,I_HVStdError,I_HHStdError,Temperature
[Data]
1  	      0.24701828      0.179455082       10536.6789           4772.8           6684.7           9192.7          21322.6     0.015626     0.011306       148.19       103.24       78.337       103.07       187.28          69.9566
2  	     0.240911054      0.174630872       10611.5808           4772.6           6771.8           9192.7          21322.6      0.01016    0.0074601       127.35       47.856       97.114       103.07       187.28          69.9633
3  	     0.246321722      0.178903777       10459.5088             4734           6640.2           9192.7          21322.6     0.012267    0.0089524       134.63       69.827       94.206       103.07       187.28            69.97
4  	     0.244662232      0.177591463       10319.0497           4661.4           6561.5           9192.7          21322.6     0.014076      0.01022       141.87       85.294       92.479       103.07       187.28          69.9733
5  	     0.243626114      0.176772908       10365.6632           4676.8           6597.7           9192.7          21322.6      0.01283     0.009368       143.01        70.02       109.93       103.07       187.28            69.98
6  	     0.237968146      0.172313831       10245.4385           4592.1           6556.5           9192.7          21322.6     0.015753     0.011409       157.45       94.717       112.06       103.07       187.28          69.9933
7  	     0.238743908      0.172924133       10192.0108           4572.3           6517.5           9192.7          21322.6     0.012965    0.0094103       133.35       75.024       87.921       103.07       187.28          69.9966
8  	     0.225331454      0.162420448       10119.4793           4468.9           6553.3           9192.7          21322.6     0.015721     0.011306       147.76       96.993       89.453       103.07       187.28            69.99
9  	     0.258041994       0.18821732       10070.1476           4620.3           6320.5           9192.7          21322.6     0.013254    0.0096924       134.42       76.324       91.456       103.07       187.28          70.0033
10 	     0.257480153      0.187769035       10102.0105           4631.9             6344           9192.7          21322.6      0.01683     0.012205       149.28       108.59       77.128       103.07       187.28          70.0066
11 	      0.24184563      0.175367726       9711.37611           4372.5           6191.8           9192.7          21322.6      0.01591     0.011573       158.41       86.298       126.33       103.07       187.28          70.0066
12 	     0.247050843      0.179480861       9915.95258           4491.8           6290.7           9192.7          21322.6     0.012375    0.0090053       122.52       70.594       73.886       103.07       187.28            70.01
13 	     0.227850171      0.164385178       9988.18189             4424           6453.1           9192.7          21322.6     0.016688        0.012       151.14       103.52       88.669       103.07       187.28          70.0066
14 	     0.233803822      0.169043558       9831.87106           4385.3           6316.7           9192.7          21322.6     0.016607     0.011945       142.21       104.29       66.909       103.07       187.28          70.0066
15 	      0.24969357      0.181575091       9886.80497           4492.4           6256.2           9192.7          21322.6     0.013351    0.0097066       127.55       78.369       75.367       103.07       187.28            70.01
16 	     0.244663701      0.177592623       9645.17584             4357             6133           9192.7          21322.6     0.014696     0.010697       144.35       79.821       108.75       103.07       187.28            70.01
17 	     0.224455268      0.161737813       9664.09939           4263.4           6263.5           9192.7          21322.6     0.011295    0.0081504        109.5       62.108       54.588       103.07       187.28            70.01
18 	     0.243355753      0.176559418       9605.58648           4332.5           6115.5           9192.7          21322.6     0.015494     0.011193       133.19       93.609        66.99       103.07       187.28          70.0133
19 	      0.24555814      0.178299745       9483.63913           4288.5           6025.1           9192.7          21322.6     0.014344     0.010399       128.45       82.276       75.661       103.07       187.28          70.0133
20 	     0.235739691      0.170562585       9574.49781           4280.2           6140.1           9192.7          21322.6     0.011723    0.0084806       109.03       66.085       49.664       103.07       187.28          70.0133
