Title=75 nM SST dsDNA Cy5 - 150 mM NaCl - 70deg - anisotropy 2
Comment=2,1,1,1
Signature=ISS_Experiment_Ver_1_0
Timestamp=Fri Nov 30 15:05:18 2018

AcquisitionType=Photon Counting
AcquisitionFormat=L
AcquisitionSide=Right

Measurable=Polarization

RightEmissionWavelengthBandwidth=8
ExcitationWavelengthBandwidth=8
Visualization=PlotType:2D,X:Iteration,Y:Polarization


Iteration=type:index,unit:none,count:20
ExcitationWavelength=type:numeric,unit:nm,fixed:649.0
EmissionWavelength=type:numeric,unit:nm,fixed:660.0

Space=Iteration
Columns=Iteration,Polarization,Anisotropy,TotalIntensity,I_VV,I_VH,I_HV,I_HH,PolarizationStdError,AnisotropyStdError,TotalIntensityStdError,I_VVStdError,I_VHStdError,I_HVStdError,I_HHStdError,Temperature
[Data]
1  	     0.291578988      0.215312898       6072.65717           2895.9           3652.7           5148.5          11839.7      0.01675     0.012405       101.26       59.286       60.014       78.297       152.82            70.01
2  	     0.245191812      0.178010079       5972.92005           2699.8           3763.5           5148.5          11839.7      0.01627     0.011837       97.849       55.398       54.456       78.297       152.82            70.01
3  	     0.261185004      0.190728475       6002.79292           2764.2           3723.8           5148.5          11839.7     0.020034     0.014634       116.92       71.199       76.507       78.297       152.82            70.01
4  	     0.247672933      0.179973475       5980.38034             2711           3759.2           5148.5          11839.7     0.016373     0.011918       97.868        56.28       53.411       78.297       152.82            70.01
5  	     0.245705623      0.178416385       5853.92701           2647.6           3686.7           5148.5          11839.7     0.017121     0.012547       112.05       49.754       88.978       78.297       152.82            70.01
6  	     0.258826237      0.188843364       5957.15981           2735.7           3704.1           5148.5          11839.7      0.01845     0.013446       104.43       66.341       56.039       78.297       152.82            70.01
7  	      0.22840854      0.164821218       6072.91087           2691.6           3887.9           5148.5          11839.7      0.01513     0.010971        97.92       48.735       59.349       78.297       152.82          70.0066
8  	     0.238121948      0.172434802        6128.6239           2747.4           3887.8           5148.5          11839.7     0.018108     0.013112       107.86       65.352       60.992       78.297       152.82          70.0066
9  	      0.24814462      0.180347137       5869.94459           2662.4           3688.1           5148.5          11839.7     0.016082     0.011725        96.41       53.049        56.18       78.297       152.82          70.0066
10 	     0.261746886      0.191178007       6103.70984           2812.5           3784.3           5148.5          11839.7     0.014563     0.010675         90.7       50.175       43.008       78.297       152.82            70.01
11 	     0.254635033      0.185501772        5862.5669           2679.2           3660.3           5148.5          11839.7     0.017318     0.012691        107.6       54.687       77.599       78.297       152.82            70.01
12 	     0.238161585       0.17246598       5864.01412           2628.9           3719.8           5148.5          11839.7     0.018124     0.013217       116.13       54.575       91.581       78.297       152.82            70.01
13 	     0.241528688      0.175117781       5979.17891           2691.1           3780.7           5148.5          11839.7     0.018171     0.013277       119.67       55.171       96.033       78.297       152.82            70.01
14 	     0.268356417      0.196479818       5986.17489           2779.5           3687.1           5148.5          11839.7     0.019374     0.014313       126.31       60.413        104.2       78.297       152.82          70.0066
15 	     0.238774356      0.172948094       5803.86516           2603.8           3679.5           5148.5          11839.7     0.017519     0.012779       111.22       52.138       85.862       78.297       152.82          70.0066
16 	     0.266291699      0.194820859       5758.67859           2667.5           3554.3           5148.5          11839.7     0.020237     0.014819       114.16       68.606       77.331       78.297       152.82          70.0066
17 	     0.219296782      0.157727571       5828.93308           2555.9           3763.4           5148.5          11839.7     0.019774     0.014235       114.71       66.006       77.475       78.297       152.82          70.0066
18 	     0.251242826      0.182804672       5906.59403           2688.7             3700           5148.5          11839.7     0.014688     0.010862       104.95       36.412       85.808       78.297       152.82          70.0066
19 	     0.247336347      0.179706916       5878.56311           2663.8           3696.4           5148.5          11839.7     0.019117     0.013877       107.32       67.362       61.565       78.297       152.82          70.0066
20 	     0.229421299      0.165612548       5982.98516           2654.9           3826.7           5148.5          11839.7     0.019474     0.014174       131.08       56.859       112.32       78.297       152.82          70.0066
